Created as New Dataset,Sample 003 By CHEM 370 Date Monday, March 02 2020
cm-1,A
4000.00,0.0023
3999.00,0.0023
3998.00,0.0023
3997.00,0.0022
3996.00,0.0022
3995.00,0.0022
3994.00,0.0021
3993.00,0.0021
3992.00,0.0021
3991.00,0.0021
3990.00,0.0021
3989.00,0.0022
3988.00,0.0021
3987.00,0.0021
3986.00,0.0021
3985.00,0.0021
3984.00,0.0021
3983.00,0.0021
3982.00,0.0021
3981.00,0.0021
3980.00,0.0021
3979.00,0.0021
3978.00,0.0021
3977.00,0.0021
3976.00,0.0021
3975.00,0.0020
3974.00,0.0020
3973.00,0.0019
3972.00,0.0019
3971.00,0.0019
3970.00,0.0019
3969.00,0.0019
3968.00,0.0019
3967.00,0.0019
3966.00,0.0019
3965.00,0.0019
3964.00,0.0019
3963.00,0.0019
3962.00,0.0019
3961.00,0.0019
3960.00,0.0019
3959.00,0.0019
3958.00,0.0018
3957.00,0.0018
3956.00,0.0018
3955.00,0.0018
3954.00,0.0018
3953.00,0.0018
3952.00,0.0018
3951.00,0.0018
3950.00,0.0018
3949.00,0.0018
3948.00,0.0019
3947.00,0.0019
3946.00,0.0019
3945.00,0.0018
3944.00,0.0018
3943.00,0.0018
3942.00,0.0018
3941.00,0.0018
3940.00,0.0018
3939.00,0.0018
3938.00,0.0018
3937.00,0.0018
3936.00,0.0018
3935.00,0.0018
3934.00,0.0018
3933.00,0.0019
3932.00,0.0019
3931.00,0.0019
3930.00,0.0018
3929.00,0.0018
3928.00,0.0018
3927.00,0.0018
3926.00,0.0018
3925.00,0.0018
3924.00,0.0018
3923.00,0.0017
3922.00,0.0017
3921.00,0.0017
3920.00,0.0017
3919.00,0.0016
3918.00,0.0016
3917.00,0.0016
3916.00,0.0016
3915.00,0.0016
3914.00,0.0016
3913.00,0.0016
3912.00,0.0016
3911.00,0.0016
3910.00,0.0016
3909.00,0.0017
3908.00,0.0017
3907.00,0.0017
3906.00,0.0017
3905.00,0.0017
3904.00,0.0017
3903.00,0.0016
3902.00,0.0016
3901.00,0.0016
3900.00,0.0016
3899.00,0.0016
3898.00,0.0016
3897.00,0.0016
3896.00,0.0016
3895.00,0.0016
3894.00,0.0016
3893.00,0.0016
3892.00,0.0015
3891.00,0.0015
3890.00,0.0015
3889.00,0.0015
3888.00,0.0015
3887.00,0.0015
3886.00,0.0015
3885.00,0.0015
3884.00,0.0016
3883.00,0.0016
3882.00,0.0016
3881.00,0.0016
3880.00,0.0016
3879.00,0.0015
3878.00,0.0015
3877.00,0.0015
3876.00,0.0015
3875.00,0.0016
3874.00,0.0016
3873.00,0.0016
3872.00,0.0016
3871.00,0.0015
3870.00,0.0015
3869.00,0.0015
3868.00,0.0016
3867.00,0.0016
3866.00,0.0016
3865.00,0.0015
3864.00,0.0015
3863.00,0.0015
3862.00,0.0015
3861.00,0.0015
3860.00,0.0015
3859.00,0.0015
3858.00,0.0014
3857.00,0.0014
3856.00,0.0014
3855.00,0.0015
3854.00,0.0015
3853.00,0.0015
3852.00,0.0015
3851.00,0.0015
3850.00,0.0015
3849.00,0.0015
3848.00,0.0015
3847.00,0.0015
3846.00,0.0015
3845.00,0.0015
3844.00,0.0015
3843.00,0.0015
3842.00,0.0015
3841.00,0.0015
3840.00,0.0015
3839.00,0.0016
3838.00,0.0016
3837.00,0.0016
3836.00,0.0016
3835.00,0.0016
3834.00,0.0016
3833.00,0.0016
3832.00,0.0015
3831.00,0.0015
3830.00,0.0015
3829.00,0.0014
3828.00,0.0014
3827.00,0.0014
3826.00,0.0015
3825.00,0.0015
3824.00,0.0015
3823.00,0.0015
3822.00,0.0015
3821.00,0.0015
3820.00,0.0015
3819.00,0.0015
3818.00,0.0015
3817.00,0.0014
3816.00,0.0014
3815.00,0.0014
3814.00,0.0014
3813.00,0.0014
3812.00,0.0014
3811.00,0.0014
3810.00,0.0014
3809.00,0.0014
3808.00,0.0014
3807.00,0.0014
3806.00,0.0014
3805.00,0.0015
3804.00,0.0015
3803.00,0.0015
3802.00,0.0015
3801.00,0.0016
3800.00,0.0016
3799.00,0.0016
3798.00,0.0016
3797.00,0.0015
3796.00,0.0015
3795.00,0.0015
3794.00,0.0014
3793.00,0.0014
3792.00,0.0014
3791.00,0.0014
3790.00,0.0015
3789.00,0.0015
3788.00,0.0015
3787.00,0.0015
3786.00,0.0015
3785.00,0.0015
3784.00,0.0015
3783.00,0.0015
3782.00,0.0015
3781.00,0.0016
3780.00,0.0016
3779.00,0.0016
3778.00,0.0015
3777.00,0.0015
3776.00,0.0015
3775.00,0.0015
3774.00,0.0015
3773.00,0.0016
3772.00,0.0016
3771.00,0.0016
3770.00,0.0016
3769.00,0.0015
3768.00,0.0015
3767.00,0.0015
3766.00,0.0015
3765.00,0.0015
3764.00,0.0015
3763.00,0.0016
3762.00,0.0016
3761.00,0.0017
3760.00,0.0017
3759.00,0.0016
3758.00,0.0016
3757.00,0.0016
3756.00,0.0016
3755.00,0.0016
3754.00,0.0016
3753.00,0.0017
3752.00,0.0017
3751.00,0.0017
3750.00,0.0018
3749.00,0.0018
3748.00,0.0018
3747.00,0.0018
3746.00,0.0018
3745.00,0.0018
3744.00,0.0018
3743.00,0.0018
3742.00,0.0017
3741.00,0.0017
3740.00,0.0018
3739.00,0.0018
3738.00,0.0018
3737.00,0.0018
3736.00,0.0018
3735.00,0.0018
3734.00,0.0018
3733.00,0.0018
3732.00,0.0018
3731.00,0.0018
3730.00,0.0018
3729.00,0.0018
3728.00,0.0018
3727.00,0.0018
3726.00,0.0018
3725.00,0.0018
3724.00,0.0019
3723.00,0.0019
3722.00,0.0019
3721.00,0.0019
3720.00,0.0019
3719.00,0.0020
3718.00,0.0019
3717.00,0.0019
3716.00,0.0019
3715.00,0.0019
3714.00,0.0019
3713.00,0.0019
3712.00,0.0019
3711.00,0.0019
3710.00,0.0019
3709.00,0.0019
3708.00,0.0019
3707.00,0.0019
3706.00,0.0019
3705.00,0.0020
3704.00,0.0020
3703.00,0.0020
3702.00,0.0021
3701.00,0.0021
3700.00,0.0021
3699.00,0.0021
3698.00,0.0020
3697.00,0.0020
3696.00,0.0021
3695.00,0.0021
3694.00,0.0021
3693.00,0.0022
3692.00,0.0022
3691.00,0.0023
3690.00,0.0023
3689.00,0.0023
3688.00,0.0023
3687.00,0.0023
3686.00,0.0024
3685.00,0.0024
3684.00,0.0025
3683.00,0.0025
3682.00,0.0025
3681.00,0.0025
3680.00,0.0025
3679.00,0.0025
3678.00,0.0026
3677.00,0.0026
3676.00,0.0027
3675.00,0.0028
3674.00,0.0028
3673.00,0.0029
3672.00,0.0029
3671.00,0.0030
3670.00,0.0030
3669.00,0.0030
3668.00,0.0031
3667.00,0.0031
3666.00,0.0033
3665.00,0.0034
3664.00,0.0034
3663.00,0.0035
3662.00,0.0035
3661.00,0.0035
3660.00,0.0035
3659.00,0.0035
3658.00,0.0036
3657.00,0.0038
3656.00,0.0039
3655.00,0.0040
3654.00,0.0041
3653.00,0.0042
3652.00,0.0043
3651.00,0.0045
3650.00,0.0046
3649.00,0.0046
3648.00,0.0046
3647.00,0.0047
3646.00,0.0048
3645.00,0.0049
3644.00,0.0050
3643.00,0.0051
3642.00,0.0052
3641.00,0.0053
3640.00,0.0054
3639.00,0.0055
3638.00,0.0056
3637.00,0.0058
3636.00,0.0059
3635.00,0.0060
3634.00,0.0061
3633.00,0.0062
3632.00,0.0063
3631.00,0.0064
3630.00,0.0066
3629.00,0.0069
3628.00,0.0071
3627.00,0.0073
3626.00,0.0074
3625.00,0.0076
3624.00,0.0078
3623.00,0.0079
3622.00,0.0081
3621.00,0.0082
3620.00,0.0084
3619.00,0.0086
3618.00,0.0088
3617.00,0.0090
3616.00,0.0092
3615.00,0.0095
3614.00,0.0097
3613.00,0.0100
3612.00,0.0102
3611.00,0.0105
3610.00,0.0107
3609.00,0.0110
3608.00,0.0113
3607.00,0.0115
3606.00,0.0117
3605.00,0.0119
3604.00,0.0121
3603.00,0.0124
3602.00,0.0127
3601.00,0.0131
3600.00,0.0134
3599.00,0.0137
3598.00,0.0140
3597.00,0.0143
3596.00,0.0146
3595.00,0.0149
3594.00,0.0153
3593.00,0.0156
3592.00,0.0159
3591.00,0.0163
3590.00,0.0166
3589.00,0.0170
3588.00,0.0175
3587.00,0.0180
3586.00,0.0183
3585.00,0.0187
3584.00,0.0190
3583.00,0.0194
3582.00,0.0197
3581.00,0.0201
3580.00,0.0205
3579.00,0.0209
3578.00,0.0213
3577.00,0.0218
3576.00,0.0222
3575.00,0.0227
3574.00,0.0231
3573.00,0.0236
3572.00,0.0240
3571.00,0.0244
3570.00,0.0248
3569.00,0.0253
3568.00,0.0259
3567.00,0.0265
3566.00,0.0270
3565.00,0.0274
3564.00,0.0278
3563.00,0.0283
3562.00,0.0288
3561.00,0.0294
3560.00,0.0299
3559.00,0.0304
3558.00,0.0309
3557.00,0.0314
3556.00,0.0319
3555.00,0.0324
3554.00,0.0330
3553.00,0.0336
3552.00,0.0342
3551.00,0.0348
3550.00,0.0353
3549.00,0.0358
3548.00,0.0364
3547.00,0.0370
3546.00,0.0377
3545.00,0.0383
3544.00,0.0390
3543.00,0.0396
3542.00,0.0402
3541.00,0.0408
3540.00,0.0414
3539.00,0.0420
3538.00,0.0427
3537.00,0.0434
3536.00,0.0441
3535.00,0.0448
3534.00,0.0455
3533.00,0.0461
3532.00,0.0468
3531.00,0.0474
3530.00,0.0481
3529.00,0.0489
3528.00,0.0496
3527.00,0.0504
3526.00,0.0511
3525.00,0.0519
3524.00,0.0527
3523.00,0.0535
3522.00,0.0542
3521.00,0.0549
3520.00,0.0557
3519.00,0.0564
3518.00,0.0571
3517.00,0.0579
3516.00,0.0587
3515.00,0.0595
3514.00,0.0603
3513.00,0.0611
3512.00,0.0619
3511.00,0.0627
3510.00,0.0635
3509.00,0.0643
3508.00,0.0652
3507.00,0.0660
3506.00,0.0668
3505.00,0.0676
3504.00,0.0685
3503.00,0.0693
3502.00,0.0702
3501.00,0.0710
3500.00,0.0719
3499.00,0.0728
3498.00,0.0737
3497.00,0.0746
3496.00,0.0755
3495.00,0.0764
3494.00,0.0773
3493.00,0.0781
3492.00,0.0790
3491.00,0.0799
3490.00,0.0808
3489.00,0.0817
3488.00,0.0825
3487.00,0.0834
3486.00,0.0844
3485.00,0.0853
3484.00,0.0863
3483.00,0.0872
3482.00,0.0882
3481.00,0.0891
3480.00,0.0901
3479.00,0.0910
3478.00,0.0919
3477.00,0.0929
3476.00,0.0938
3475.00,0.0947
3474.00,0.0957
3473.00,0.0967
3472.00,0.0977
3471.00,0.0987
3470.00,0.0996
3469.00,0.1006
3468.00,0.1016
3467.00,0.1026
3466.00,0.1035
3465.00,0.1045
3464.00,0.1054
3463.00,0.1064
3462.00,0.1074
3461.00,0.1085
3460.00,0.1095
3459.00,0.1105
3458.00,0.1115
3457.00,0.1124
3456.00,0.1133
3455.00,0.1143
3454.00,0.1153
3453.00,0.1163
3452.00,0.1172
3451.00,0.1182
3450.00,0.1193
3449.00,0.1203
3448.00,0.1215
3447.00,0.1226
3446.00,0.1236
3445.00,0.1246
3444.00,0.1256
3443.00,0.1266
3442.00,0.1277
3441.00,0.1288
3440.00,0.1298
3439.00,0.1308
3438.00,0.1318
3437.00,0.1329
3436.00,0.1339
3435.00,0.1350
3434.00,0.1360
3433.00,0.1371
3432.00,0.1381
3431.00,0.1392
3430.00,0.1402
3429.00,0.1412
3428.00,0.1423
3427.00,0.1433
3426.00,0.1443
3425.00,0.1452
3424.00,0.1462
3423.00,0.1472
3422.00,0.1483
3421.00,0.1493
3420.00,0.1504
3419.00,0.1514
3418.00,0.1524
3417.00,0.1534
3416.00,0.1545
3415.00,0.1555
3414.00,0.1565
3413.00,0.1575
3412.00,0.1585
3411.00,0.1594
3410.00,0.1604
3409.00,0.1614
3408.00,0.1624
3407.00,0.1634
3406.00,0.1644
3405.00,0.1654
3404.00,0.1665
3403.00,0.1674
3402.00,0.1684
3401.00,0.1693
3400.00,0.1702
3399.00,0.1712
3398.00,0.1721
3397.00,0.1731
3396.00,0.1741
3395.00,0.1750
3394.00,0.1760
3393.00,0.1770
3392.00,0.1780
3391.00,0.1789
3390.00,0.1797
3389.00,0.1806
3388.00,0.1815
3387.00,0.1823
3386.00,0.1832
3385.00,0.1841
3384.00,0.1850
3383.00,0.1859
3382.00,0.1867
3381.00,0.1876
3380.00,0.1884
3379.00,0.1893
3378.00,0.1902
3377.00,0.1911
3376.00,0.1920
3375.00,0.1929
3374.00,0.1937
3373.00,0.1946
3372.00,0.1954
3371.00,0.1963
3370.00,0.1971
3369.00,0.1979
3368.00,0.1987
3367.00,0.1994
3366.00,0.2001
3365.00,0.2008
3364.00,0.2015
3363.00,0.2023
3362.00,0.2030
3361.00,0.2037
3360.00,0.2044
3359.00,0.2050
3358.00,0.2057
3357.00,0.2064
3356.00,0.2071
3355.00,0.2078
3354.00,0.2085
3353.00,0.2092
3352.00,0.2098
3351.00,0.2104
3350.00,0.2110
3349.00,0.2116
3348.00,0.2121
3347.00,0.2127
3346.00,0.2133
3345.00,0.2138
3344.00,0.2144
3343.00,0.2150
3342.00,0.2155
3341.00,0.2161
3340.00,0.2166
3339.00,0.2170
3338.00,0.2175
3337.00,0.2180
3336.00,0.2185
3335.00,0.2190
3334.00,0.2194
3333.00,0.2198
3332.00,0.2202
3331.00,0.2205
3330.00,0.2209
3329.00,0.2214
3328.00,0.2218
3327.00,0.2222
3326.00,0.2226
3325.00,0.2229
3324.00,0.2232
3323.00,0.2235
3322.00,0.2238
3321.00,0.2241
3320.00,0.2244
3319.00,0.2247
3318.00,0.2249
3317.00,0.2251
3316.00,0.2254
3315.00,0.2256
3314.00,0.2259
3313.00,0.2261
3312.00,0.2264
3311.00,0.2266
3310.00,0.2268
3309.00,0.2270
3308.00,0.2272
3307.00,0.2273
3306.00,0.2274
3305.00,0.2275
3304.00,0.2275
3303.00,0.2275
3302.00,0.2275
3301.00,0.2275
3300.00,0.2275
3299.00,0.2275
3298.00,0.2276
3297.00,0.2276
3296.00,0.2276
3295.00,0.2276
3294.00,0.2276
3293.00,0.2275
3292.00,0.2274
3291.00,0.2273
3290.00,0.2271
3289.00,0.2270
3288.00,0.2269
3287.00,0.2268
3286.00,0.2267
3285.00,0.2266
3284.00,0.2264
3283.00,0.2262
3282.00,0.2259
3281.00,0.2257
3280.00,0.2255
3279.00,0.2253
3278.00,0.2251
3277.00,0.2249
3276.00,0.2248
3275.00,0.2246
3274.00,0.2243
3273.00,0.2240
3272.00,0.2237
3271.00,0.2234
3270.00,0.2230
3269.00,0.2226
3268.00,0.2222
3267.00,0.2217
3266.00,0.2213
3265.00,0.2209
3264.00,0.2205
3263.00,0.2201
3262.00,0.2197
3261.00,0.2193
3260.00,0.2188
3259.00,0.2184
3258.00,0.2179
3257.00,0.2174
3256.00,0.2169
3255.00,0.2164
3254.00,0.2158
3253.00,0.2152
3252.00,0.2147
3251.00,0.2141
3250.00,0.2135
3249.00,0.2129
3248.00,0.2123
3247.00,0.2117
3246.00,0.2110
3245.00,0.2104
3244.00,0.2097
3243.00,0.2091
3242.00,0.2084
3241.00,0.2077
3240.00,0.2070
3239.00,0.2063
3238.00,0.2055
3237.00,0.2048
3236.00,0.2041
3235.00,0.2033
3234.00,0.2026
3233.00,0.2018
3232.00,0.2010
3231.00,0.2001
3230.00,0.1993
3229.00,0.1984
3228.00,0.1976
3227.00,0.1967
3226.00,0.1958
3225.00,0.1950
3224.00,0.1941
3223.00,0.1932
3222.00,0.1923
3221.00,0.1914
3220.00,0.1906
3219.00,0.1897
3218.00,0.1888
3217.00,0.1878
3216.00,0.1868
3215.00,0.1858
3214.00,0.1848
3213.00,0.1838
3212.00,0.1829
3211.00,0.1819
3210.00,0.1809
3209.00,0.1799
3208.00,0.1788
3207.00,0.1778
3206.00,0.1768
3205.00,0.1758
3204.00,0.1747
3203.00,0.1737
3202.00,0.1727
3201.00,0.1716
3200.00,0.1706
3199.00,0.1695
3198.00,0.1684
3197.00,0.1672
3196.00,0.1661
3195.00,0.1650
3194.00,0.1639
3193.00,0.1629
3192.00,0.1618
3191.00,0.1607
3190.00,0.1597
3189.00,0.1586
3188.00,0.1574
3187.00,0.1563
3186.00,0.1552
3185.00,0.1541
3184.00,0.1530
3183.00,0.1519
3182.00,0.1508
3181.00,0.1496
3180.00,0.1485
3179.00,0.1473
3178.00,0.1462
3177.00,0.1451
3176.00,0.1440
3175.00,0.1428
3174.00,0.1417
3173.00,0.1405
3172.00,0.1394
3171.00,0.1383
3170.00,0.1372
3169.00,0.1360
3168.00,0.1349
3167.00,0.1338
3166.00,0.1327
3165.00,0.1315
3164.00,0.1304
3163.00,0.1293
3162.00,0.1283
3161.00,0.1272
3160.00,0.1261
3159.00,0.1251
3158.00,0.1240
3157.00,0.1229
3156.00,0.1218
3155.00,0.1207
3154.00,0.1197
3153.00,0.1186
3152.00,0.1175
3151.00,0.1164
3150.00,0.1153
3149.00,0.1142
3148.00,0.1132
3147.00,0.1122
3146.00,0.1112
3145.00,0.1102
3144.00,0.1092
3143.00,0.1082
3142.00,0.1071
3141.00,0.1061
3140.00,0.1051
3139.00,0.1041
3138.00,0.1030
3137.00,0.1020
3136.00,0.1010
3135.00,0.1001
3134.00,0.0992
3133.00,0.0983
3132.00,0.0973
3131.00,0.0964
3130.00,0.0955
3129.00,0.0945
3128.00,0.0936
3127.00,0.0927
3126.00,0.0918
3125.00,0.0909
3124.00,0.0900
3123.00,0.0890
3122.00,0.0881
3121.00,0.0872
3120.00,0.0864
3119.00,0.0855
3118.00,0.0847
3117.00,0.0838
3116.00,0.0830
3115.00,0.0822
3114.00,0.0814
3113.00,0.0806
3112.00,0.0798
3111.00,0.0790
3110.00,0.0782
3109.00,0.0774
3108.00,0.0767
3107.00,0.0759
3106.00,0.0751
3105.00,0.0744
3104.00,0.0736
3103.00,0.0728
3102.00,0.0721
3101.00,0.0714
3100.00,0.0707
3099.00,0.0700
3098.00,0.0693
3097.00,0.0686
3096.00,0.0679
3095.00,0.0672
3094.00,0.0665
3093.00,0.0659
3092.00,0.0652
3091.00,0.0646
3090.00,0.0640
3089.00,0.0634
3088.00,0.0628
3087.00,0.0622
3086.00,0.0616
3085.00,0.0610
3084.00,0.0604
3083.00,0.0598
3082.00,0.0593
3081.00,0.0587
3080.00,0.0582
3079.00,0.0576
3078.00,0.0570
3077.00,0.0564
3076.00,0.0558
3075.00,0.0553
3074.00,0.0548
3073.00,0.0543
3072.00,0.0538
3071.00,0.0533
3070.00,0.0527
3069.00,0.0522
3068.00,0.0518
3067.00,0.0513
3066.00,0.0508
3065.00,0.0503
3064.00,0.0499
3063.00,0.0494
3062.00,0.0490
3061.00,0.0485
3060.00,0.0481
3059.00,0.0477
3058.00,0.0473
3057.00,0.0468
3056.00,0.0464
3055.00,0.0460
3054.00,0.0456
3053.00,0.0452
3052.00,0.0448
3051.00,0.0444
3050.00,0.0441
3049.00,0.0438
3048.00,0.0434
3047.00,0.0430
3046.00,0.0426
3045.00,0.0423
3044.00,0.0419
3043.00,0.0416
3042.00,0.0412
3041.00,0.0409
3040.00,0.0406
3039.00,0.0403
3038.00,0.0400
3037.00,0.0397
3036.00,0.0394
3035.00,0.0390
3034.00,0.0388
3033.00,0.0385
3032.00,0.0382
3031.00,0.0380
3030.00,0.0377
3029.00,0.0375
3028.00,0.0372
3027.00,0.0370
3026.00,0.0368
3025.00,0.0365
3024.00,0.0363
3023.00,0.0361
3022.00,0.0359
3021.00,0.0357
3020.00,0.0356
3019.00,0.0354
3018.00,0.0352
3017.00,0.0350
3016.00,0.0348
3015.00,0.0347
3014.00,0.0346
3013.00,0.0345
3012.00,0.0344
3011.00,0.0344
3010.00,0.0343
3009.00,0.0343
3008.00,0.0342
3007.00,0.0342
3006.00,0.0342
3005.00,0.0343
3004.00,0.0344
3003.00,0.0346
3002.00,0.0348
3001.00,0.0350
3000.00,0.0353
2999.00,0.0356
2998.00,0.0360
2997.00,0.0364
2996.00,0.0369
2995.00,0.0376
2994.00,0.0382
2993.00,0.0390
2992.00,0.0398
2991.00,0.0407
2990.00,0.0417
2989.00,0.0427
2988.00,0.0438
2987.00,0.0450
2986.00,0.0463
2985.00,0.0476
2984.00,0.0490
2983.00,0.0504
2982.00,0.0519
2981.00,0.0534
2980.00,0.0550
2979.00,0.0565
2978.00,0.0580
2977.00,0.0594
2976.00,0.0609
2975.00,0.0623
2974.00,0.0636
2973.00,0.0648
2972.00,0.0659
2971.00,0.0669
2970.00,0.0678
2969.00,0.0687
2968.00,0.0694
2967.00,0.0700
2966.00,0.0706
2965.00,0.0712
2964.00,0.0718
2963.00,0.0725
2962.00,0.0731
2961.00,0.0739
2960.00,0.0747
2959.00,0.0757
2958.00,0.0767
2957.00,0.0777
2956.00,0.0788
2955.00,0.0800
2954.00,0.0812
2953.00,0.0824
2952.00,0.0837
2951.00,0.0849
2950.00,0.0862
2949.00,0.0874
2948.00,0.0887
2947.00,0.0900
2946.00,0.0912
2945.00,0.0924
2944.00,0.0936
2943.00,0.0947
2942.00,0.0957
2941.00,0.0967
2940.00,0.0975
2939.00,0.0983
2938.00,0.0990
2937.00,0.0996
2936.00,0.1002
2935.00,0.1006
2934.00,0.1008
2933.00,0.1009
2932.00,0.1008
2931.00,0.1007
2930.00,0.1003
2929.00,0.0999
2928.00,0.0994
2927.00,0.0988
2926.00,0.0981
2925.00,0.0974
2924.00,0.0966
2923.00,0.0958
2922.00,0.0949
2921.00,0.0939
2920.00,0.0929
2919.00,0.0920
2918.00,0.0910
2917.00,0.0901
2916.00,0.0892
2915.00,0.0884
2914.00,0.0876
2913.00,0.0869
2912.00,0.0863
2911.00,0.0858
2910.00,0.0854
2909.00,0.0850
2908.00,0.0847
2907.00,0.0844
2906.00,0.0844
2905.00,0.0844
2904.00,0.0845
2903.00,0.0847
2902.00,0.0850
2901.00,0.0854
2900.00,0.0859
2899.00,0.0864
2898.00,0.0870
2897.00,0.0877
2896.00,0.0885
2895.00,0.0894
2894.00,0.0903
2893.00,0.0912
2892.00,0.0922
2891.00,0.0932
2890.00,0.0941
2889.00,0.0951
2888.00,0.0960
2887.00,0.0969
2886.00,0.0978
2885.00,0.0985
2884.00,0.0992
2883.00,0.0997
2882.00,0.1001
2881.00,0.1004
2880.00,0.1005
2879.00,0.1005
2878.00,0.1003
2877.00,0.0999
2876.00,0.0993
2875.00,0.0986
2874.00,0.0977
2873.00,0.0967
2872.00,0.0955
2871.00,0.0942
2870.00,0.0929
2869.00,0.0915
2868.00,0.0900
2867.00,0.0885
2866.00,0.0870
2865.00,0.0854
2864.00,0.0839
2863.00,0.0824
2862.00,0.0810
2861.00,0.0795
2860.00,0.0782
2859.00,0.0768
2858.00,0.0755
2857.00,0.0743
2856.00,0.0731
2855.00,0.0720
2854.00,0.0709
2853.00,0.0698
2852.00,0.0688
2851.00,0.0678
2850.00,0.0669
2849.00,0.0659
2848.00,0.0651
2847.00,0.0642
2846.00,0.0634
2845.00,0.0626
2844.00,0.0618
2843.00,0.0610
2842.00,0.0602
2841.00,0.0595
2840.00,0.0588
2839.00,0.0581
2838.00,0.0574
2837.00,0.0568
2836.00,0.0561
2835.00,0.0555
2834.00,0.0549
2833.00,0.0543
2832.00,0.0537
2831.00,0.0531
2830.00,0.0525
2829.00,0.0519
2828.00,0.0513
2827.00,0.0507
2826.00,0.0502
2825.00,0.0496
2824.00,0.0491
2823.00,0.0485
2822.00,0.0480
2821.00,0.0475
2820.00,0.0470
2819.00,0.0464
2818.00,0.0459
2817.00,0.0454
2816.00,0.0449
2815.00,0.0444
2814.00,0.0439
2813.00,0.0434
2812.00,0.0430
2811.00,0.0425
2810.00,0.0421
2809.00,0.0416
2808.00,0.0412
2807.00,0.0408
2806.00,0.0404
2805.00,0.0399
2804.00,0.0395
2803.00,0.0392
2802.00,0.0388
2801.00,0.0384
2800.00,0.0380
2799.00,0.0376
2798.00,0.0373
2797.00,0.0369
2796.00,0.0366
2795.00,0.0363
2794.00,0.0360
2793.00,0.0357
2792.00,0.0354
2791.00,0.0351
2790.00,0.0348
2789.00,0.0345
2788.00,0.0342
2787.00,0.0339
2786.00,0.0337
2785.00,0.0334
2784.00,0.0332
2783.00,0.0329
2782.00,0.0327
2781.00,0.0325
2780.00,0.0323
2779.00,0.0321
2778.00,0.0318
2777.00,0.0316
2776.00,0.0314
2775.00,0.0313
2774.00,0.0311
2773.00,0.0309
2772.00,0.0307
2771.00,0.0306
2770.00,0.0304
2769.00,0.0302
2768.00,0.0301
2767.00,0.0300
2766.00,0.0298
2765.00,0.0297
2764.00,0.0296
2763.00,0.0295
2762.00,0.0293
2761.00,0.0292
2760.00,0.0290
2759.00,0.0289
2758.00,0.0288
2757.00,0.0287
2756.00,0.0286
2755.00,0.0285
2754.00,0.0283
2753.00,0.0282
2752.00,0.0281
2751.00,0.0280
2750.00,0.0279
2749.00,0.0278
2748.00,0.0277
2747.00,0.0276
2746.00,0.0276
2745.00,0.0275
2744.00,0.0274
2743.00,0.0273
2742.00,0.0272
2741.00,0.0271
2740.00,0.0270
2739.00,0.0269
2738.00,0.0268
2737.00,0.0267
2736.00,0.0266
2735.00,0.0265
2734.00,0.0265
2733.00,0.0264
2732.00,0.0263
2731.00,0.0261
2730.00,0.0260
2729.00,0.0259
2728.00,0.0258
2727.00,0.0257
2726.00,0.0256
2725.00,0.0255
2724.00,0.0254
2723.00,0.0253
2722.00,0.0251
2721.00,0.0250
2720.00,0.0249
2719.00,0.0248
2718.00,0.0247
2717.00,0.0246
2716.00,0.0244
2715.00,0.0243
2714.00,0.0241
2713.00,0.0240
2712.00,0.0239
2711.00,0.0238
2710.00,0.0236
2709.00,0.0235
2708.00,0.0234
2707.00,0.0233
2706.00,0.0232
2705.00,0.0231
2704.00,0.0230
2703.00,0.0229
2702.00,0.0229
2701.00,0.0228
2700.00,0.0227
2699.00,0.0226
2698.00,0.0225
2697.00,0.0225
2696.00,0.0224
2695.00,0.0223
2694.00,0.0222
2693.00,0.0221
2692.00,0.0221
2691.00,0.0220
2690.00,0.0220
2689.00,0.0219
2688.00,0.0219
2687.00,0.0219
2686.00,0.0218
2685.00,0.0217
2684.00,0.0217
2683.00,0.0217
2682.00,0.0216
2681.00,0.0216
2680.00,0.0216
2679.00,0.0215
2678.00,0.0214
2677.00,0.0214
2676.00,0.0213
2675.00,0.0213
2674.00,0.0212
2673.00,0.0212
2672.00,0.0212
2671.00,0.0211
2670.00,0.0211
2669.00,0.0210
2668.00,0.0210
2667.00,0.0209
2666.00,0.0208
2665.00,0.0208
2664.00,0.0207
2663.00,0.0207
2662.00,0.0207
2661.00,0.0206
2660.00,0.0206
2659.00,0.0205
2658.00,0.0204
2657.00,0.0203
2656.00,0.0203
2655.00,0.0202
2654.00,0.0202
2653.00,0.0201
2652.00,0.0201
2651.00,0.0200
2650.00,0.0199
2649.00,0.0198
2648.00,0.0198
2647.00,0.0197
2646.00,0.0197
2645.00,0.0196
2644.00,0.0195
2643.00,0.0194
2642.00,0.0193
2641.00,0.0193
2640.00,0.0192
2639.00,0.0191
2638.00,0.0190
2637.00,0.0188
2636.00,0.0187
2635.00,0.0187
2634.00,0.0186
2633.00,0.0186
2632.00,0.0185
2631.00,0.0184
2630.00,0.0182
2629.00,0.0181
2628.00,0.0180
2627.00,0.0179
2626.00,0.0179
2625.00,0.0178
2624.00,0.0176
2623.00,0.0175
2622.00,0.0174
2621.00,0.0173
2620.00,0.0172
2619.00,0.0172
2618.00,0.0171
2617.00,0.0170
2616.00,0.0169
2615.00,0.0168
2614.00,0.0167
2613.00,0.0166
2612.00,0.0164
2611.00,0.0163
2610.00,0.0162
2609.00,0.0161
2608.00,0.0160
2607.00,0.0159
2606.00,0.0158
2605.00,0.0158
2604.00,0.0157
2603.00,0.0156
2602.00,0.0155
2601.00,0.0154
2600.00,0.0153
2599.00,0.0152
2598.00,0.0152
2597.00,0.0151
2596.00,0.0151
2595.00,0.0150
2594.00,0.0148
2593.00,0.0147
2592.00,0.0146
2591.00,0.0145
2590.00,0.0145
2589.00,0.0144
2588.00,0.0144
2587.00,0.0143
2586.00,0.0143
2585.00,0.0143
2584.00,0.0142
2583.00,0.0142
2582.00,0.0141
2581.00,0.0140
2580.00,0.0140
2579.00,0.0139
2578.00,0.0139
2577.00,0.0138
2576.00,0.0138
2575.00,0.0137
2574.00,0.0137
2573.00,0.0136
2572.00,0.0136
2571.00,0.0136
2570.00,0.0135
2569.00,0.0135
2568.00,0.0135
2567.00,0.0134
2566.00,0.0133
2565.00,0.0133
2564.00,0.0132
2563.00,0.0132
2562.00,0.0132
2561.00,0.0131
2560.00,0.0131
2559.00,0.0132
2558.00,0.0132
2557.00,0.0132
2556.00,0.0132
2555.00,0.0132
2554.00,0.0131
2553.00,0.0131
2552.00,0.0130
2551.00,0.0130
2550.00,0.0129
2549.00,0.0129
2548.00,0.0129
2547.00,0.0129
2546.00,0.0129
2545.00,0.0128
2544.00,0.0128
2543.00,0.0128
2542.00,0.0128
2541.00,0.0128
2540.00,0.0128
2539.00,0.0129
2538.00,0.0129
2537.00,0.0129
2536.00,0.0128
2535.00,0.0127
2534.00,0.0126
2533.00,0.0126
2532.00,0.0126
2531.00,0.0126
2530.00,0.0126
2529.00,0.0125
2528.00,0.0125
2527.00,0.0125
2526.00,0.0125
2525.00,0.0124
2524.00,0.0124
2523.00,0.0124
2522.00,0.0123
2521.00,0.0123
2520.00,0.0122
2519.00,0.0122
2518.00,0.0122
2517.00,0.0122
2516.00,0.0122
2515.00,0.0122
2514.00,0.0122
2513.00,0.0121
2512.00,0.0121
2511.00,0.0121
2510.00,0.0120
2509.00,0.0120
2508.00,0.0119
2507.00,0.0119
2506.00,0.0118
2505.00,0.0118
2504.00,0.0118
2503.00,0.0118
2502.00,0.0117
2501.00,0.0117
2500.00,0.0116
2499.00,0.0115
2498.00,0.0114
2497.00,0.0114
2496.00,0.0114
2495.00,0.0113
2494.00,0.0113
2493.00,0.0112
2492.00,0.0112
2491.00,0.0112
2490.00,0.0112
2489.00,0.0111
2488.00,0.0111
2487.00,0.0110
2486.00,0.0110
2485.00,0.0109
2484.00,0.0108
2483.00,0.0108
2482.00,0.0107
2481.00,0.0107
2480.00,0.0106
2479.00,0.0106
2478.00,0.0106
2477.00,0.0105
2476.00,0.0105
2475.00,0.0105
2474.00,0.0104
2473.00,0.0104
2472.00,0.0103
2471.00,0.0102
2470.00,0.0102
2469.00,0.0101
2468.00,0.0100
2467.00,0.0100
2466.00,0.0099
2465.00,0.0099
2464.00,0.0099
2463.00,0.0099
2462.00,0.0098
2461.00,0.0097
2460.00,0.0096
2459.00,0.0096
2458.00,0.0096
2457.00,0.0095
2456.00,0.0095
2455.00,0.0094
2454.00,0.0093
2453.00,0.0093
2452.00,0.0092
2451.00,0.0091
2450.00,0.0090
2449.00,0.0090
2448.00,0.0090
2447.00,0.0090
2446.00,0.0090
2445.00,0.0089
2444.00,0.0088
2443.00,0.0087
2442.00,0.0087
2441.00,0.0087
2440.00,0.0087
2439.00,0.0086
2438.00,0.0085
2437.00,0.0085
2436.00,0.0084
2435.00,0.0083
2434.00,0.0082
2433.00,0.0082
2432.00,0.0081
2431.00,0.0081
2430.00,0.0081
2429.00,0.0081
2428.00,0.0081
2427.00,0.0080
2426.00,0.0079
2425.00,0.0079
2424.00,0.0079
2423.00,0.0078
2422.00,0.0078
2421.00,0.0077
2420.00,0.0076
2419.00,0.0076
2418.00,0.0075
2417.00,0.0075
2416.00,0.0074
2415.00,0.0074
2414.00,0.0073
2413.00,0.0073
2412.00,0.0072
2411.00,0.0072
2410.00,0.0072
2409.00,0.0072
2408.00,0.0072
2407.00,0.0071
2406.00,0.0071
2405.00,0.0071
2404.00,0.0070
2403.00,0.0070
2402.00,0.0070
2401.00,0.0069
2400.00,0.0069
2399.00,0.0069
2398.00,0.0069
2397.00,0.0068
2396.00,0.0068
2395.00,0.0068
2394.00,0.0067
2393.00,0.0067
2392.00,0.0067
2391.00,0.0067
2390.00,0.0067
2389.00,0.0067
2388.00,0.0067
2387.00,0.0066
2386.00,0.0066
2385.00,0.0065
2384.00,0.0064
2383.00,0.0063
2382.00,0.0063
2381.00,0.0063
2380.00,0.0063
2379.00,0.0063
2378.00,0.0063
2377.00,0.0062
2376.00,0.0062
2375.00,0.0062
2374.00,0.0062
2373.00,0.0062
2372.00,0.0062
2371.00,0.0062
2370.00,0.0061
2369.00,0.0061
2368.00,0.0060
2367.00,0.0060
2366.00,0.0060
2365.00,0.0060
2364.00,0.0060
2363.00,0.0060
2362.00,0.0060
2361.00,0.0060
2360.00,0.0060
2359.00,0.0059
2358.00,0.0059
2357.00,0.0059
2356.00,0.0059
2355.00,0.0059
2354.00,0.0059
2353.00,0.0059
2352.00,0.0059
2351.00,0.0058
2350.00,0.0058
2349.00,0.0058
2348.00,0.0058
2347.00,0.0058
2346.00,0.0058
2345.00,0.0058
2344.00,0.0058
2343.00,0.0057
2342.00,0.0057
2341.00,0.0057
2340.00,0.0057
2339.00,0.0057
2338.00,0.0057
2337.00,0.0057
2336.00,0.0057
2335.00,0.0057
2334.00,0.0057
2333.00,0.0057
2332.00,0.0057
2331.00,0.0056
2330.00,0.0056
2329.00,0.0056
2328.00,0.0056
2327.00,0.0057
2326.00,0.0057
2325.00,0.0057
2324.00,0.0057
2323.00,0.0056
2322.00,0.0056
2321.00,0.0057
2320.00,0.0057
2319.00,0.0057
2318.00,0.0057
2317.00,0.0056
2316.00,0.0056
2315.00,0.0056
2314.00,0.0056
2313.00,0.0056
2312.00,0.0055
2311.00,0.0055
2310.00,0.0055
2309.00,0.0055
2308.00,0.0055
2307.00,0.0055
2306.00,0.0055
2305.00,0.0055
2304.00,0.0055
2303.00,0.0055
2302.00,0.0055
2301.00,0.0056
2300.00,0.0056
2299.00,0.0056
2298.00,0.0057
2297.00,0.0056
2296.00,0.0056
2295.00,0.0055
2294.00,0.0055
2293.00,0.0054
2292.00,0.0054
2291.00,0.0054
2290.00,0.0054
2289.00,0.0054
2288.00,0.0055
2287.00,0.0055
2286.00,0.0055
2285.00,0.0054
2284.00,0.0053
2283.00,0.0053
2282.00,0.0052
2281.00,0.0052
2280.00,0.0052
2279.00,0.0052
2278.00,0.0052
2277.00,0.0052
2276.00,0.0052
2275.00,0.0052
2274.00,0.0052
2273.00,0.0052
2272.00,0.0051
2271.00,0.0051
2270.00,0.0050
2269.00,0.0050
2268.00,0.0050
2267.00,0.0051
2266.00,0.0051
2265.00,0.0051
2264.00,0.0051
2263.00,0.0051
2262.00,0.0050
2261.00,0.0050
2260.00,0.0050
2259.00,0.0049
2258.00,0.0050
2257.00,0.0050
2256.00,0.0051
2255.00,0.0051
2254.00,0.0051
2253.00,0.0051
2252.00,0.0051
2251.00,0.0051
2250.00,0.0051
2249.00,0.0050
2248.00,0.0050
2247.00,0.0050
2246.00,0.0049
2245.00,0.0049
2244.00,0.0050
2243.00,0.0050
2242.00,0.0050
2241.00,0.0051
2240.00,0.0051
2239.00,0.0051
2238.00,0.0050
2237.00,0.0050
2236.00,0.0050
2235.00,0.0050
2234.00,0.0050
2233.00,0.0049
2232.00,0.0049
2231.00,0.0049
2230.00,0.0049
2229.00,0.0050
2228.00,0.0050
2227.00,0.0050
2226.00,0.0050
2225.00,0.0051
2224.00,0.0051
2223.00,0.0051
2222.00,0.0050
2221.00,0.0050
2220.00,0.0050
2219.00,0.0050
2218.00,0.0050
2217.00,0.0051
2216.00,0.0051
2215.00,0.0051
2214.00,0.0051
2213.00,0.0051
2212.00,0.0051
2211.00,0.0051
2210.00,0.0051
2209.00,0.0050
2208.00,0.0050
2207.00,0.0050
2206.00,0.0050
2205.00,0.0050
2204.00,0.0051
2203.00,0.0051
2202.00,0.0050
2201.00,0.0049
2200.00,0.0049
2199.00,0.0048
2198.00,0.0047
2197.00,0.0046
2196.00,0.0047
2195.00,0.0048
2194.00,0.0050
2193.00,0.0051
2192.00,0.0051
2191.00,0.0050
2190.00,0.0049
2189.00,0.0049
2188.00,0.0050
2187.00,0.0051
2186.00,0.0052
2185.00,0.0052
2184.00,0.0051
2183.00,0.0050
2182.00,0.0050
2181.00,0.0049
2180.00,0.0050
2179.00,0.0051
2178.00,0.0051
2177.00,0.0052
2176.00,0.0052
2175.00,0.0052
2174.00,0.0051
2173.00,0.0051
2172.00,0.0051
2171.00,0.0050
2170.00,0.0050
2169.00,0.0050
2168.00,0.0052
2167.00,0.0053
2166.00,0.0053
2165.00,0.0054
2164.00,0.0054
2163.00,0.0055
2162.00,0.0056
2161.00,0.0057
2160.00,0.0057
2159.00,0.0055
2158.00,0.0053
2157.00,0.0052
2156.00,0.0051
2155.00,0.0051
2154.00,0.0052
2153.00,0.0053
2152.00,0.0054
2151.00,0.0054
2150.00,0.0054
2149.00,0.0054
2148.00,0.0054
2147.00,0.0054
2146.00,0.0054
2145.00,0.0054
2144.00,0.0055
2143.00,0.0055
2142.00,0.0056
2141.00,0.0057
2140.00,0.0057
2139.00,0.0057
2138.00,0.0058
2137.00,0.0058
2136.00,0.0059
2135.00,0.0059
2134.00,0.0059
2133.00,0.0058
2132.00,0.0057
2131.00,0.0056
2130.00,0.0055
2129.00,0.0055
2128.00,0.0055
2127.00,0.0056
2126.00,0.0057
2125.00,0.0057
2124.00,0.0058
2123.00,0.0058
2122.00,0.0058
2121.00,0.0058
2120.00,0.0058
2119.00,0.0057
2118.00,0.0056
2117.00,0.0055
2116.00,0.0055
2115.00,0.0055
2114.00,0.0055
2113.00,0.0055
2112.00,0.0055
2111.00,0.0055
2110.00,0.0055
2109.00,0.0056
2108.00,0.0056
2107.00,0.0057
2106.00,0.0056
2105.00,0.0056
2104.00,0.0056
2103.00,0.0057
2102.00,0.0057
2101.00,0.0058
2100.00,0.0058
2099.00,0.0058
2098.00,0.0057
2097.00,0.0057
2096.00,0.0056
2095.00,0.0057
2094.00,0.0057
2093.00,0.0057
2092.00,0.0057
2091.00,0.0057
2090.00,0.0056
2089.00,0.0056
2088.00,0.0057
2087.00,0.0058
2086.00,0.0058
2085.00,0.0059
2084.00,0.0059
2083.00,0.0059
2082.00,0.0059
2081.00,0.0058
2080.00,0.0059
2079.00,0.0058
2078.00,0.0058
2077.00,0.0058
2076.00,0.0058
2075.00,0.0058
2074.00,0.0058
2073.00,0.0058
2072.00,0.0058
2071.00,0.0057
2070.00,0.0057
2069.00,0.0056
2068.00,0.0056
2067.00,0.0056
2066.00,0.0056
2065.00,0.0056
2064.00,0.0056
2063.00,0.0056
2062.00,0.0055
2061.00,0.0055
2060.00,0.0056
2059.00,0.0055
2058.00,0.0054
2057.00,0.0053
2056.00,0.0053
2055.00,0.0054
2054.00,0.0055
2053.00,0.0055
2052.00,0.0055
2051.00,0.0054
2050.00,0.0053
2049.00,0.0052
2048.00,0.0052
2047.00,0.0051
2046.00,0.0050
2045.00,0.0049
2044.00,0.0048
2043.00,0.0048
2042.00,0.0048
2041.00,0.0048
2040.00,0.0049
2039.00,0.0049
2038.00,0.0049
2037.00,0.0050
2036.00,0.0051
2035.00,0.0051
2034.00,0.0051
2033.00,0.0050
2032.00,0.0050
2031.00,0.0050
2030.00,0.0050
2029.00,0.0050
2028.00,0.0051
2027.00,0.0051
2026.00,0.0051
2025.00,0.0051
2024.00,0.0051
2023.00,0.0050
2022.00,0.0049
2021.00,0.0048
2020.00,0.0048
2019.00,0.0047
2018.00,0.0046
2017.00,0.0045
2016.00,0.0044
2015.00,0.0044
2014.00,0.0044
2013.00,0.0045
2012.00,0.0046
2011.00,0.0047
2010.00,0.0047
2009.00,0.0046
2008.00,0.0046
2007.00,0.0046
2006.00,0.0047
2005.00,0.0047
2004.00,0.0048
2003.00,0.0048
2002.00,0.0047
2001.00,0.0047
2000.00,0.0047
1999.00,0.0047
1998.00,0.0048
1997.00,0.0049
1996.00,0.0050
1995.00,0.0050
1994.00,0.0050
1993.00,0.0049
1992.00,0.0050
1991.00,0.0050
1990.00,0.0050
1989.00,0.0050
1988.00,0.0051
1987.00,0.0052
1986.00,0.0052
1985.00,0.0052
1984.00,0.0052
1983.00,0.0051
1982.00,0.0050
1981.00,0.0050
1980.00,0.0050
1979.00,0.0050
1978.00,0.0050
1977.00,0.0050
1976.00,0.0050
1975.00,0.0050
1974.00,0.0050
1973.00,0.0050
1972.00,0.0051
1971.00,0.0051
1970.00,0.0050
1969.00,0.0050
1968.00,0.0049
1967.00,0.0049
1966.00,0.0050
1965.00,0.0051
1964.00,0.0052
1963.00,0.0052
1962.00,0.0051
1961.00,0.0051
1960.00,0.0050
1959.00,0.0050
1958.00,0.0049
1957.00,0.0049
1956.00,0.0049
1955.00,0.0049
1954.00,0.0049
1953.00,0.0049
1952.00,0.0049
1951.00,0.0050
1950.00,0.0050
1949.00,0.0051
1948.00,0.0052
1947.00,0.0052
1946.00,0.0052
1945.00,0.0051
1944.00,0.0051
1943.00,0.0050
1942.00,0.0049
1941.00,0.0049
1940.00,0.0049
1939.00,0.0049
1938.00,0.0049
1937.00,0.0050
1936.00,0.0050
1935.00,0.0050
1934.00,0.0050
1933.00,0.0050
1932.00,0.0050
1931.00,0.0051
1930.00,0.0051
1929.00,0.0052
1928.00,0.0052
1927.00,0.0051
1926.00,0.0051
1925.00,0.0051
1924.00,0.0051
1923.00,0.0051
1922.00,0.0051
1921.00,0.0051
1920.00,0.0051
1919.00,0.0051
1918.00,0.0051
1917.00,0.0052
1916.00,0.0052
1915.00,0.0052
1914.00,0.0052
1913.00,0.0052
1912.00,0.0052
1911.00,0.0051
1910.00,0.0051
1909.00,0.0051
1908.00,0.0051
1907.00,0.0051
1906.00,0.0050
1905.00,0.0050
1904.00,0.0050
1903.00,0.0050
1902.00,0.0050
1901.00,0.0050
1900.00,0.0051
1899.00,0.0051
1898.00,0.0051
1897.00,0.0051
1896.00,0.0051
1895.00,0.0051
1894.00,0.0050
1893.00,0.0050
1892.00,0.0050
1891.00,0.0050
1890.00,0.0050
1889.00,0.0050
1888.00,0.0050
1887.00,0.0050
1886.00,0.0050
1885.00,0.0050
1884.00,0.0050
1883.00,0.0050
1882.00,0.0050
1881.00,0.0050
1880.00,0.0050
1879.00,0.0049
1878.00,0.0049
1877.00,0.0049
1876.00,0.0049
1875.00,0.0049
1874.00,0.0049
1873.00,0.0049
1872.00,0.0050
1871.00,0.0050
1870.00,0.0050
1869.00,0.0050
1868.00,0.0050
1867.00,0.0050
1866.00,0.0050
1865.00,0.0050
1864.00,0.0050
1863.00,0.0050
1862.00,0.0050
1861.00,0.0050
1860.00,0.0050
1859.00,0.0050
1858.00,0.0050
1857.00,0.0051
1856.00,0.0051
1855.00,0.0051
1854.00,0.0051
1853.00,0.0051
1852.00,0.0050
1851.00,0.0050
1850.00,0.0050
1849.00,0.0050
1848.00,0.0051
1847.00,0.0051
1846.00,0.0051
1845.00,0.0051
1844.00,0.0051
1843.00,0.0051
1842.00,0.0051
1841.00,0.0052
1840.00,0.0052
1839.00,0.0052
1838.00,0.0052
1837.00,0.0052
1836.00,0.0053
1835.00,0.0053
1834.00,0.0053
1833.00,0.0053
1832.00,0.0054
1831.00,0.0054
1830.00,0.0054
1829.00,0.0054
1828.00,0.0054
1827.00,0.0053
1826.00,0.0052
1825.00,0.0052
1824.00,0.0052
1823.00,0.0052
1822.00,0.0053
1821.00,0.0053
1820.00,0.0054
1819.00,0.0054
1818.00,0.0055
1817.00,0.0055
1816.00,0.0055
1815.00,0.0055
1814.00,0.0055
1813.00,0.0055
1812.00,0.0055
1811.00,0.0055
1810.00,0.0055
1809.00,0.0055
1808.00,0.0055
1807.00,0.0055
1806.00,0.0055
1805.00,0.0055
1804.00,0.0056
1803.00,0.0056
1802.00,0.0056
1801.00,0.0057
1800.00,0.0057
1799.00,0.0057
1798.00,0.0057
1797.00,0.0057
1796.00,0.0057
1795.00,0.0057
1794.00,0.0058
1793.00,0.0058
1792.00,0.0059
1791.00,0.0059
1790.00,0.0060
1789.00,0.0060
1788.00,0.0061
1787.00,0.0061
1786.00,0.0061
1785.00,0.0062
1784.00,0.0062
1783.00,0.0063
1782.00,0.0063
1781.00,0.0064
1780.00,0.0064
1779.00,0.0064
1778.00,0.0064
1777.00,0.0065
1776.00,0.0066
1775.00,0.0066
1774.00,0.0067
1773.00,0.0067
1772.00,0.0068
1771.00,0.0068
1770.00,0.0069
1769.00,0.0070
1768.00,0.0071
1767.00,0.0072
1766.00,0.0072
1765.00,0.0073
1764.00,0.0073
1763.00,0.0074
1762.00,0.0074
1761.00,0.0075
1760.00,0.0076
1759.00,0.0077
1758.00,0.0079
1757.00,0.0080
1756.00,0.0082
1755.00,0.0083
1754.00,0.0084
1753.00,0.0085
1752.00,0.0087
1751.00,0.0088
1750.00,0.0090
1749.00,0.0092
1748.00,0.0094
1747.00,0.0096
1746.00,0.0098
1745.00,0.0100
1744.00,0.0102
1743.00,0.0105
1742.00,0.0108
1741.00,0.0110
1740.00,0.0113
1739.00,0.0115
1738.00,0.0116
1737.00,0.0118
1736.00,0.0119
1735.00,0.0120
1734.00,0.0122
1733.00,0.0125
1732.00,0.0128
1731.00,0.0130
1730.00,0.0131
1729.00,0.0133
1728.00,0.0134
1727.00,0.0136
1726.00,0.0137
1725.00,0.0138
1724.00,0.0140
1723.00,0.0141
1722.00,0.0143
1721.00,0.0144
1720.00,0.0144
1719.00,0.0145
1718.00,0.0146
1717.00,0.0148
1716.00,0.0150
1715.00,0.0151
1714.00,0.0152
1713.00,0.0153
1712.00,0.0154
1711.00,0.0154
1710.00,0.0154
1709.00,0.0154
1708.00,0.0154
1707.00,0.0153
1706.00,0.0153
1705.00,0.0153
1704.00,0.0153
1703.00,0.0154
1702.00,0.0153
1701.00,0.0151
1700.00,0.0149
1699.00,0.0148
1698.00,0.0147
1697.00,0.0147
1696.00,0.0148
1695.00,0.0148
1694.00,0.0149
1693.00,0.0150
1692.00,0.0151
1691.00,0.0151
1690.00,0.0152
1689.00,0.0152
1688.00,0.0153
1687.00,0.0153
1686.00,0.0154
1685.00,0.0155
1684.00,0.0158
1683.00,0.0160
1682.00,0.0161
1681.00,0.0163
1680.00,0.0165
1679.00,0.0167
1678.00,0.0169
1677.00,0.0171
1676.00,0.0172
1675.00,0.0174
1674.00,0.0175
1673.00,0.0177
1672.00,0.0178
1671.00,0.0180
1670.00,0.0181
1669.00,0.0183
1668.00,0.0185
1667.00,0.0187
1666.00,0.0188
1665.00,0.0190
1664.00,0.0191
1663.00,0.0193
1662.00,0.0194
1661.00,0.0196
1660.00,0.0197
1659.00,0.0198
1658.00,0.0199
1657.00,0.0199
1656.00,0.0200
1655.00,0.0200
1654.00,0.0199
1653.00,0.0199
1652.00,0.0199
1651.00,0.0200
1650.00,0.0200
1649.00,0.0200
1648.00,0.0199
1647.00,0.0199
1646.00,0.0198
1645.00,0.0197
1644.00,0.0196
1643.00,0.0195
1642.00,0.0194
1641.00,0.0194
1640.00,0.0194
1639.00,0.0194
1638.00,0.0194
1637.00,0.0194
1636.00,0.0194
1635.00,0.0193
1634.00,0.0192
1633.00,0.0192
1632.00,0.0192
1631.00,0.0192
1630.00,0.0193
1629.00,0.0193
1628.00,0.0194
1627.00,0.0195
1626.00,0.0196
1625.00,0.0196
1624.00,0.0197
1623.00,0.0197
1622.00,0.0197
1621.00,0.0197
1620.00,0.0196
1619.00,0.0195
1618.00,0.0194
1617.00,0.0193
1616.00,0.0193
1615.00,0.0192
1614.00,0.0192
1613.00,0.0191
1612.00,0.0190
1611.00,0.0188
1610.00,0.0187
1609.00,0.0187
1608.00,0.0186
1607.00,0.0186
1606.00,0.0185
1605.00,0.0184
1604.00,0.0183
1603.00,0.0181
1602.00,0.0180
1601.00,0.0179
1600.00,0.0178
1599.00,0.0177
1598.00,0.0176
1597.00,0.0175
1596.00,0.0174
1595.00,0.0173
1594.00,0.0172
1593.00,0.0172
1592.00,0.0171
1591.00,0.0171
1590.00,0.0170
1589.00,0.0170
1588.00,0.0170
1587.00,0.0170
1586.00,0.0170
1585.00,0.0170
1584.00,0.0170
1583.00,0.0170
1582.00,0.0169
1581.00,0.0169
1580.00,0.0169
1579.00,0.0169
1578.00,0.0169
1577.00,0.0169
1576.00,0.0169
1575.00,0.0169
1574.00,0.0169
1573.00,0.0169
1572.00,0.0169
1571.00,0.0170
1570.00,0.0170
1569.00,0.0171
1568.00,0.0172
1567.00,0.0173
1566.00,0.0173
1565.00,0.0173
1564.00,0.0174
1563.00,0.0174
1562.00,0.0175
1561.00,0.0175
1560.00,0.0176
1559.00,0.0178
1558.00,0.0178
1557.00,0.0178
1556.00,0.0179
1555.00,0.0179
1554.00,0.0179
1553.00,0.0179
1552.00,0.0180
1551.00,0.0180
1550.00,0.0180
1549.00,0.0181
1548.00,0.0182
1547.00,0.0182
1546.00,0.0183
1545.00,0.0184
1544.00,0.0186
1543.00,0.0187
1542.00,0.0188
1541.00,0.0188
1540.00,0.0190
1539.00,0.0191
1538.00,0.0192
1537.00,0.0193
1536.00,0.0194
1535.00,0.0195
1534.00,0.0196
1533.00,0.0198
1532.00,0.0200
1531.00,0.0202
1530.00,0.0203
1529.00,0.0205
1528.00,0.0207
1527.00,0.0208
1526.00,0.0210
1525.00,0.0213
1524.00,0.0215
1523.00,0.0217
1522.00,0.0219
1521.00,0.0222
1520.00,0.0225
1519.00,0.0227
1518.00,0.0229
1517.00,0.0231
1516.00,0.0234
1515.00,0.0237
1514.00,0.0239
1513.00,0.0243
1512.00,0.0246
1511.00,0.0248
1510.00,0.0250
1509.00,0.0253
1508.00,0.0258
1507.00,0.0265
1506.00,0.0271
1505.00,0.0276
1504.00,0.0280
1503.00,0.0284
1502.00,0.0288
1501.00,0.0293
1500.00,0.0299
1499.00,0.0305
1498.00,0.0312
1497.00,0.0321
1496.00,0.0331
1495.00,0.0340
1494.00,0.0348
1493.00,0.0357
1492.00,0.0367
1491.00,0.0379
1490.00,0.0393
1489.00,0.0409
1488.00,0.0425
1487.00,0.0440
1486.00,0.0455
1485.00,0.0471
1484.00,0.0487
1483.00,0.0504
1482.00,0.0523
1481.00,0.0544
1480.00,0.0564
1479.00,0.0583
1478.00,0.0602
1477.00,0.0623
1476.00,0.0645
1475.00,0.0666
1474.00,0.0690
1473.00,0.0718
1472.00,0.0747
1471.00,0.0770
1470.00,0.0790
1469.00,0.0808
1468.00,0.0825
1467.00,0.0843
1466.00,0.0862
1465.00,0.0882
1464.00,0.0901
1463.00,0.0915
1462.00,0.0927
1461.00,0.0937
1460.00,0.0946
1459.00,0.0954
1458.00,0.0964
1457.00,0.0975
1456.00,0.0982
1455.00,0.0984
1454.00,0.0983
1453.00,0.0981
1452.00,0.0979
1451.00,0.0976
1450.00,0.0973
1449.00,0.0971
1448.00,0.0971
1447.00,0.0971
1446.00,0.0972
1445.00,0.0974
1444.00,0.0977
1443.00,0.0980
1442.00,0.0985
1441.00,0.0990
1440.00,0.0995
1439.00,0.1001
1438.00,0.1007
1437.00,0.1017
1436.00,0.1027
1435.00,0.1034
1434.00,0.1040
1433.00,0.1046
1432.00,0.1052
1431.00,0.1059
1430.00,0.1066
1429.00,0.1074
1428.00,0.1080
1427.00,0.1085
1426.00,0.1090
1425.00,0.1096
1424.00,0.1103
1423.00,0.1107
1422.00,0.1111
1421.00,0.1114
1420.00,0.1118
1419.00,0.1123
1418.00,0.1127
1417.00,0.1130
1416.00,0.1132
1415.00,0.1133
1414.00,0.1133
1413.00,0.1133
1412.00,0.1133
1411.00,0.1132
1410.00,0.1131
1409.00,0.1129
1408.00,0.1126
1407.00,0.1122
1406.00,0.1117
1405.00,0.1113
1404.00,0.1107
1403.00,0.1101
1402.00,0.1094
1401.00,0.1087
1400.00,0.1079
1399.00,0.1071
1398.00,0.1063
1397.00,0.1055
1396.00,0.1047
1395.00,0.1039
1394.00,0.1032
1393.00,0.1025
1392.00,0.1020
1391.00,0.1015
1390.00,0.1010
1389.00,0.1007
1388.00,0.1005
1387.00,0.1005
1386.00,0.1005
1385.00,0.1005
1384.00,0.1005
1383.00,0.1005
1382.00,0.1006
1381.00,0.1007
1380.00,0.1008
1379.00,0.1009
1378.00,0.1009
1377.00,0.1008
1376.00,0.1006
1375.00,0.1002
1374.00,0.0998
1373.00,0.0992
1372.00,0.0986
1371.00,0.0979
1370.00,0.0971
1369.00,0.0964
1368.00,0.0956
1367.00,0.0949
1366.00,0.0941
1365.00,0.0934
1364.00,0.0927
1363.00,0.0921
1362.00,0.0916
1361.00,0.0912
1360.00,0.0909
1359.00,0.0906
1358.00,0.0905
1357.00,0.0904
1356.00,0.0904
1355.00,0.0905
1354.00,0.0906
1353.00,0.0907
1352.00,0.0909
1351.00,0.0911
1350.00,0.0913
1349.00,0.0917
1348.00,0.0920
1347.00,0.0924
1346.00,0.0928
1345.00,0.0932
1344.00,0.0936
1343.00,0.0940
1342.00,0.0944
1341.00,0.0949
1340.00,0.0955
1339.00,0.0960
1338.00,0.0966
1337.00,0.0971
1336.00,0.0975
1335.00,0.0979
1334.00,0.0982
1333.00,0.0985
1332.00,0.0987
1331.00,0.0989
1330.00,0.0990
1329.00,0.0991
1328.00,0.0990
1327.00,0.0989
1326.00,0.0988
1325.00,0.0985
1324.00,0.0982
1323.00,0.0979
1322.00,0.0974
1321.00,0.0970
1320.00,0.0965
1319.00,0.0960
1318.00,0.0954
1317.00,0.0948
1316.00,0.0942
1315.00,0.0935
1314.00,0.0928
1313.00,0.0921
1312.00,0.0915
1311.00,0.0909
1310.00,0.0904
1309.00,0.0898
1308.00,0.0893
1307.00,0.0889
1306.00,0.0887
1305.00,0.0885
1304.00,0.0883
1303.00,0.0882
1302.00,0.0881
1301.00,0.0880
1300.00,0.0880
1299.00,0.0879
1298.00,0.0879
1297.00,0.0879
1296.00,0.0879
1295.00,0.0878
1294.00,0.0878
1293.00,0.0878
1292.00,0.0878
1291.00,0.0876
1290.00,0.0875
1289.00,0.0873
1288.00,0.0871
1287.00,0.0870
1286.00,0.0868
1285.00,0.0867
1284.00,0.0865
1283.00,0.0862
1282.00,0.0859
1281.00,0.0856
1280.00,0.0853
1279.00,0.0850
1278.00,0.0847
1277.00,0.0845
1276.00,0.0842
1275.00,0.0839
1274.00,0.0836
1273.00,0.0833
1272.00,0.0830
1271.00,0.0828
1270.00,0.0826
1269.00,0.0823
1268.00,0.0821
1267.00,0.0818
1266.00,0.0814
1265.00,0.0810
1264.00,0.0806
1263.00,0.0801
1262.00,0.0797
1261.00,0.0792
1260.00,0.0788
1259.00,0.0785
1258.00,0.0782
1257.00,0.0781
1256.00,0.0780
1255.00,0.0781
1254.00,0.0783
1253.00,0.0786
1252.00,0.0790
1251.00,0.0793
1250.00,0.0797
1249.00,0.0801
1248.00,0.0806
1247.00,0.0810
1246.00,0.0815
1245.00,0.0820
1244.00,0.0825
1243.00,0.0830
1242.00,0.0834
1241.00,0.0838
1240.00,0.0842
1239.00,0.0845
1238.00,0.0848
1237.00,0.0850
1236.00,0.0852
1235.00,0.0853
1234.00,0.0855
1233.00,0.0856
1232.00,0.0856
1231.00,0.0856
1230.00,0.0856
1229.00,0.0855
1228.00,0.0855
1227.00,0.0854
1226.00,0.0854
1225.00,0.0853
1224.00,0.0853
1223.00,0.0853
1222.00,0.0852
1221.00,0.0851
1220.00,0.0851
1219.00,0.0850
1218.00,0.0849
1217.00,0.0849
1216.00,0.0850
1215.00,0.0850
1214.00,0.0850
1213.00,0.0850
1212.00,0.0849
1211.00,0.0849
1210.00,0.0848
1209.00,0.0848
1208.00,0.0848
1207.00,0.0846
1206.00,0.0843
1205.00,0.0840
1204.00,0.0835
1203.00,0.0829
1202.00,0.0823
1201.00,0.0815
1200.00,0.0805
1199.00,0.0794
1198.00,0.0782
1197.00,0.0769
1196.00,0.0754
1195.00,0.0740
1194.00,0.0724
1193.00,0.0708
1192.00,0.0690
1191.00,0.0672
1190.00,0.0654
1189.00,0.0636
1188.00,0.0618
1187.00,0.0601
1186.00,0.0584
1185.00,0.0567
1184.00,0.0551
1183.00,0.0535
1182.00,0.0521
1181.00,0.0507
1180.00,0.0494
1179.00,0.0482
1178.00,0.0470
1177.00,0.0458
1176.00,0.0447
1175.00,0.0438
1174.00,0.0429
1173.00,0.0422
1172.00,0.0415
1171.00,0.0409
1170.00,0.0403
1169.00,0.0398
1168.00,0.0393
1167.00,0.0389
1166.00,0.0386
1165.00,0.0383
1164.00,0.0381
1163.00,0.0379
1162.00,0.0378
1161.00,0.0377
1160.00,0.0377
1159.00,0.0378
1158.00,0.0381
1157.00,0.0385
1156.00,0.0390
1155.00,0.0398
1154.00,0.0408
1153.00,0.0420
1152.00,0.0434
1151.00,0.0451
1150.00,0.0469
1149.00,0.0489
1148.00,0.0510
1147.00,0.0530
1146.00,0.0551
1145.00,0.0571
1144.00,0.0590
1143.00,0.0609
1142.00,0.0627
1141.00,0.0645
1140.00,0.0663
1139.00,0.0680
1138.00,0.0697
1137.00,0.0714
1136.00,0.0731
1135.00,0.0748
1134.00,0.0766
1133.00,0.0786
1132.00,0.0809
1131.00,0.0835
1130.00,0.0866
1129.00,0.0901
1128.00,0.0942
1127.00,0.0988
1126.00,0.1039
1125.00,0.1096
1124.00,0.1157
1123.00,0.1222
1122.00,0.1290
1121.00,0.1361
1120.00,0.1433
1119.00,0.1504
1118.00,0.1572
1117.00,0.1638
1116.00,0.1699
1115.00,0.1753
1114.00,0.1800
1113.00,0.1837
1112.00,0.1866
1111.00,0.1885
1110.00,0.1894
1109.00,0.1896
1108.00,0.1889
1107.00,0.1874
1106.00,0.1853
1105.00,0.1829
1104.00,0.1803
1103.00,0.1774
1102.00,0.1746
1101.00,0.1720
1100.00,0.1697
1099.00,0.1677
1098.00,0.1659
1097.00,0.1644
1096.00,0.1633
1095.00,0.1624
1094.00,0.1617
1093.00,0.1613
1092.00,0.1613
1091.00,0.1615
1090.00,0.1619
1089.00,0.1623
1088.00,0.1629
1087.00,0.1635
1086.00,0.1642
1085.00,0.1650
1084.00,0.1659
1083.00,0.1668
1082.00,0.1676
1081.00,0.1686
1080.00,0.1696
1079.00,0.1706
1078.00,0.1717
1077.00,0.1728
1076.00,0.1741
1075.00,0.1755
1074.00,0.1770
1073.00,0.1789
1072.00,0.1811
1071.00,0.1835
1070.00,0.1862
1069.00,0.1895
1068.00,0.1933
1067.00,0.1976
1066.00,0.2024
1065.00,0.2077
1064.00,0.2137
1063.00,0.2203
1062.00,0.2274
1061.00,0.2351
1060.00,0.2437
1059.00,0.2528
1058.00,0.2624
1057.00,0.2729
1056.00,0.2840
1055.00,0.2959
1054.00,0.3085
1053.00,0.3220
1052.00,0.3363
1051.00,0.3509
1050.00,0.3658
1049.00,0.3809
1048.00,0.3962
1047.00,0.4111
1046.00,0.4254
1045.00,0.4396
1044.00,0.4534
1043.00,0.4666
1042.00,0.4788
1041.00,0.4903
1040.00,0.5009
1039.00,0.5101
1038.00,0.5176
1037.00,0.5240
1036.00,0.5291
1035.00,0.5322
1034.00,0.5333
1033.00,0.5328
1032.00,0.5307
1031.00,0.5265
1030.00,0.5203
1029.00,0.5123
1028.00,0.5025
1027.00,0.4905
1026.00,0.4765
1025.00,0.4610
1024.00,0.4441
1023.00,0.4257
1022.00,0.4059
1021.00,0.3853
1020.00,0.3644
1019.00,0.3432
1018.00,0.3223
1017.00,0.3022
1016.00,0.2832
1015.00,0.2654
1014.00,0.2491
1013.00,0.2348
1012.00,0.2225
1011.00,0.2122
1010.00,0.2040
1009.00,0.1979
1008.00,0.1938
1007.00,0.1916
1006.00,0.1910
1005.00,0.1918
1004.00,0.1940
1003.00,0.1970
1002.00,0.2008
1001.00,0.2051
1000.00,0.2097
999.00,0.2143
998.00,0.2188
997.00,0.2229
996.00,0.2267
995.00,0.2298
994.00,0.2319
993.00,0.2331
992.00,0.2331
991.00,0.2316
990.00,0.2287
989.00,0.2245
988.00,0.2192
987.00,0.2131
986.00,0.2066
985.00,0.2001
984.00,0.1940
983.00,0.1884
982.00,0.1836
981.00,0.1797
980.00,0.1766
979.00,0.1739
978.00,0.1715
977.00,0.1692
976.00,0.1667
975.00,0.1638
974.00,0.1603
973.00,0.1563
972.00,0.1516
971.00,0.1462
970.00,0.1402
969.00,0.1337
968.00,0.1270
967.00,0.1201
966.00,0.1132
965.00,0.1066
964.00,0.1004
963.00,0.0947
962.00,0.0896
961.00,0.0852
960.00,0.0814
959.00,0.0784
958.00,0.0760
957.00,0.0742
956.00,0.0731
955.00,0.0725
954.00,0.0724
953.00,0.0727
952.00,0.0734
951.00,0.0744
950.00,0.0753
949.00,0.0763
948.00,0.0772
947.00,0.0781
946.00,0.0788
945.00,0.0795
944.00,0.0804
943.00,0.0817
942.00,0.0836
941.00,0.0862
940.00,0.0896
939.00,0.0939
938.00,0.0990
937.00,0.1048
936.00,0.1113
935.00,0.1182
934.00,0.1253
933.00,0.1325
932.00,0.1397
931.00,0.1467
930.00,0.1532
929.00,0.1593
928.00,0.1649
927.00,0.1697
926.00,0.1736
925.00,0.1768
924.00,0.1791
923.00,0.1804
922.00,0.1807
921.00,0.1799
920.00,0.1784
919.00,0.1759
918.00,0.1728
917.00,0.1691
916.00,0.1649
915.00,0.1602
914.00,0.1551
913.00,0.1498
912.00,0.1442
911.00,0.1385
910.00,0.1327
909.00,0.1270
908.00,0.1214
907.00,0.1158
906.00,0.1104
905.00,0.1053
904.00,0.1005
903.00,0.0961
902.00,0.0918
901.00,0.0878
900.00,0.0840
899.00,0.0804
898.00,0.0772
897.00,0.0744
896.00,0.0720
895.00,0.0700
894.00,0.0684
893.00,0.0673
892.00,0.0665
891.00,0.0661
890.00,0.0660
889.00,0.0664
888.00,0.0672
887.00,0.0684
886.00,0.0701
885.00,0.0721
884.00,0.0743
883.00,0.0766
882.00,0.0791
881.00,0.0817
880.00,0.0844
879.00,0.0872
878.00,0.0899
877.00,0.0926
876.00,0.0954
875.00,0.0983
874.00,0.1014
873.00,0.1044
872.00,0.1075
871.00,0.1105
870.00,0.1133
869.00,0.1158
868.00,0.1181
867.00,0.1199
866.00,0.1215
865.00,0.1227
864.00,0.1237
863.00,0.1245
862.00,0.1252
861.00,0.1261
860.00,0.1271
859.00,0.1283
858.00,0.1295
857.00,0.1310
856.00,0.1327
855.00,0.1345
854.00,0.1361
853.00,0.1378
852.00,0.1394
851.00,0.1409
850.00,0.1423
849.00,0.1436
848.00,0.1449
847.00,0.1461
846.00,0.1471
845.00,0.1481
844.00,0.1490
843.00,0.1498
842.00,0.1502
841.00,0.1503
840.00,0.1496
839.00,0.1479
838.00,0.1450
837.00,0.1411
836.00,0.1363
835.00,0.1309
834.00,0.1253
833.00,0.1199
832.00,0.1150
831.00,0.1108
830.00,0.1074
829.00,0.1049
828.00,0.1033
827.00,0.1023
826.00,0.1017
825.00,0.1016
824.00,0.1017
823.00,0.1021
822.00,0.1025
821.00,0.1030
820.00,0.1034
819.00,0.1036
818.00,0.1036
817.00,0.1035
816.00,0.1033
815.00,0.1030
814.00,0.1028
813.00,0.1026
812.00,0.1027
811.00,0.1028
810.00,0.1030
809.00,0.1034
808.00,0.1040
807.00,0.1048
806.00,0.1054
805.00,0.1059
804.00,0.1063
803.00,0.1065
802.00,0.1065
801.00,0.1064
800.00,0.1063
799.00,0.1062
798.00,0.1060
797.00,0.1059
796.00,0.1061
795.00,0.1064
794.00,0.1068
793.00,0.1072
792.00,0.1077
791.00,0.1083
790.00,0.1091
789.00,0.1099
788.00,0.1107
787.00,0.1116
786.00,0.1124
785.00,0.1132
784.00,0.1141
783.00,0.1150
782.00,0.1158
781.00,0.1166
780.00,0.1174
779.00,0.1180
778.00,0.1187
777.00,0.1194
776.00,0.1202
775.00,0.1210
774.00,0.1216
773.00,0.1223
772.00,0.1231
771.00,0.1239
770.00,0.1248
769.00,0.1257
768.00,0.1267
767.00,0.1278
766.00,0.1287
765.00,0.1297
764.00,0.1306
763.00,0.1315
762.00,0.1324
761.00,0.1334
760.00,0.1345
759.00,0.1356
758.00,0.1366
757.00,0.1376
756.00,0.1386
755.00,0.1396
754.00,0.1405
753.00,0.1415
752.00,0.1424
751.00,0.1434
750.00,0.1444
749.00,0.1454
748.00,0.1465
747.00,0.1475
746.00,0.1484
745.00,0.1494
744.00,0.1506
743.00,0.1517
742.00,0.1526
741.00,0.1536
740.00,0.1546
739.00,0.1557
738.00,0.1569
737.00,0.1582
736.00,0.1596
735.00,0.1609
734.00,0.1622
733.00,0.1633
732.00,0.1645
731.00,0.1656
730.00,0.1666
729.00,0.1677
728.00,0.1689
727.00,0.1701
726.00,0.1712
725.00,0.1723
724.00,0.1735
723.00,0.1749
722.00,0.1762
721.00,0.1776
720.00,0.1790
719.00,0.1803
718.00,0.1815
717.00,0.1828
716.00,0.1842
715.00,0.1857
714.00,0.1870
713.00,0.1883
712.00,0.1897
711.00,0.1910
710.00,0.1922
709.00,0.1935
708.00,0.1948
707.00,0.1960
706.00,0.1970
705.00,0.1982
704.00,0.1997
703.00,0.2011
702.00,0.2023
701.00,0.2036
700.00,0.2049
699.00,0.2062
698.00,0.2075
697.00,0.2090
696.00,0.2107
695.00,0.2126
694.00,0.2146
693.00,0.2166
692.00,0.2186
691.00,0.2206
690.00,0.2225
689.00,0.2247
688.00,0.2272
687.00,0.2299
686.00,0.2326
685.00,0.2356
684.00,0.2389
683.00,0.2420
682.00,0.2447
681.00,0.2475
680.00,0.2504
679.00,0.2533
678.00,0.2559
677.00,0.2585
676.00,0.2609
675.00,0.2629
674.00,0.2645
673.00,0.2659
672.00,0.2669
671.00,0.2674
670.00,0.2675
669.00,0.2681
668.00,0.2698
667.00,0.2712
666.00,0.2716
665.00,0.2717
664.00,0.2721
663.00,0.2726
662.00,0.2731
661.00,0.2739
660.00,0.2750
659.00,0.2761
658.00,0.2770
657.00,0.2778
656.00,0.2785
655.00,0.2788
654.00,0.2789
653.00,0.2794
652.00,0.2802
651.00,0.2807
650.00,0.2809
